File: XPS/241019_191x195-2.2.csv
C1s Scan
	Characteristic Energy eV	1486.68	Acquisition Time s	0.05
KE_C1s Scan	BE_C1s Scan	CPS_C1s Scan	C-C/C-H_1_C1s Scan	C-O_2_C1s Scan	C=O_3_C1s Scan	O-C=O_4_C1s Scan	Background_C1s Scan	Envelope_C1s Scan	Normalised_Residual_C1s Scan	Residual_C1s Scan
1188.96	297.722	2126.08	2126.08	2126.08	2126.08	2126.08	2126.08	2126.08	0	0
1189.06	297.622	2119.8	2119.8	2119.8	2119.8	2119.8	2119.8	2119.8	0	0
1189.16	297.522	2067.92	2067.92	2067.92	2067.92	2067.92	2067.92	2067.92	0	0
1189.26	297.422	2026.08	2026.08	2026.08	2026.08	2026.08	2026.08	2026.08	0	0
1189.36	297.322	2016.48	2016.48	2016.48	2016.48	2016.48	2016.48	2016.48	0	0
1189.46	297.222	1984.53	1984.53	1984.53	1984.53	1984.53	1984.53	1984.53	0	0
1189.56	297.122	1943.33	1943.33	1943.33	1943.33	1943.33	1943.33	1943.33	0	0
1189.66	297.022	1835.51	1835.51	1835.51	1835.51	1835.51	1835.51	1835.51	0	0
1189.76	296.922	2183.62	2183.62	2183.62	2183.62	2183.62	2183.62	2183.62	0	0
1189.86	296.822	1984.48	1984.48	1984.48	1984.48	1984.48	1984.48	1984.48	0	0
1189.96	296.722	1843.98	1843.98	1843.98	1843.98	1843.98	1843.98	1843.98	0	0
1190.06	296.622	1814.81	1814.81	1814.81	1814.81	1814.81	1814.81	1814.81	0	0
1190.16	296.522	1940.93	1940.93	1940.93	1940.93	1940.93	1940.93	1940.93	0	0
1190.26	296.422	2028.76	2028.76	2028.76	2028.76	2028.76	2028.76	2028.76	0	0
1190.36	296.322	2221.34	2221.34	2221.34	2221.34	2221.34	2221.34	2221.34	0	0
1190.46	296.222	1747.36	1747.36	1747.36	1747.36	1747.36	1747.36	1747.36	0	0
1190.56	296.122	1470.91	1470.91	1470.91	1470.91	1470.91	1470.91	1470.91	0	0
1190.66	296.022	1392.31	1392.31	1392.31	1392.31	1392.31	1392.31	1392.31	0	0
1190.76	295.922	1902.42	1902.42	1902.42	1902.42	1902.42	1902.42	1902.42	0	0
1190.86	295.822	1220.86	1220.86	1220.86	1220.86	1220.86	1220.86	1220.86	0	0
1190.96	295.722	1364.05	1364.05	1364.05	1364.05	1364.05	1364.05	1364.05	0	0
1191.06	295.622	1615.26	1615.26	1615.26	1615.26	1615.26	1615.26	1615.26	0	0
1191.16	295.522	1610.69	1610.69	1610.69	1610.69	1610.69	1610.69	1610.69	0	0
1191.26	295.422	1414.67	1414.67	1414.67	1414.67	1414.67	1414.67	1414.67	0	0
1191.36	295.322	1335.58	1335.58	1335.58	1335.58	1335.58	1335.58	1335.58	0	0
1191.46	295.222	1343.28	1343.28	1343.28	1343.28	1343.28	1343.28	1343.28	0	0
1191.56	295.122	1420.73	1420.73	1420.73	1420.73	1420.73	1420.73	1420.73	0	0
1191.66	295.022	972.738	972.738	972.738	972.738	972.738	972.738	972.738	0	0
1191.76	294.922	1171.24	1171.24	1171.24	1171.24	1171.24	1171.24	1171.24	0	0
1191.86	294.822	1302.73	1302.73	1302.73	1302.73	1302.73	1302.73	1302.73	0	0
1191.96	294.722	966.682	966.682	966.682	966.682	966.682	966.682	966.682	0	0
1192.06	294.622	1530.19	1530.19	1530.19	1530.19	1530.19	1530.19	1530.19	0	0
1192.16	294.522	1109.24	1109.24	1109.24	1109.24	1109.24	1109.24	1109.24	0	0
1192.26	294.422	988.586	988.586	988.586	988.586	988.586	988.586	988.586	0	0
1192.36	294.322	928.234	928.234	928.234	928.234	928.234	928.234	928.234	0	0
1192.46	294.222	1007.48	1007.48	1007.48	1007.48	1007.48	1007.48	1007.48	0	0
1192.56	294.122	975.698	975.698	975.698	975.698	975.698	975.698	975.698	0	0
1192.66	294.022	913.316	913.316	913.316	913.316	913.316	913.316	913.316	0	0
1192.76	293.922	970.136	970.136	970.136	970.136	970.136	970.136	970.136	0	0
1192.86	293.822	999.614	999.614	999.614	999.614	999.614	999.614	999.614	0	0
1192.96	293.722	845.914	845.914	845.914	845.914	845.914	845.914	845.914	0	0
1193.06	293.622	835.768	835.768	835.768	835.768	835.768	835.768	835.768	0	0
1193.16	293.522	914.076	914.076	914.076	914.076	914.076	914.076	914.076	0	0
1193.26	293.422	490.562	490.562	490.562	490.562	490.562	490.562	490.562	0	0
1193.36	293.322	719.152	719.152	719.152	719.152	719.152	719.152	719.152	0	0
1193.46	293.222	712.476	712.476	712.476	712.476	712.476	712.476	712.476	0	0
1193.56	293.122	751.812	751.812	751.812	751.812	751.812	751.812	751.812	0	0
1193.66	293.022	856.296	856.296	856.296	856.296	856.296	856.296	856.296	0	0
1193.76	292.922	707.45	707.45	707.45	707.45	707.45	707.45	707.45	0	0
1193.86	292.822	611.036	611.036	611.036	611.036	611.037	611.036	611.037	0	0
1193.96	292.722	515.59	515.59	515.59	515.59	515.591	515.59	515.591	0	0
1194.06	292.622	754.336	754.336	754.336	754.336	754.338	754.336	754.338	0	0
1194.16	292.522	592.654	592.654	592.654	592.654	592.659	592.654	592.659	0	0
1194.26	292.422	673.926	673.926	673.926	673.926	673.935	673.926	673.935	0	0
1194.36	292.322	400.444	400.444	400.444	400.444	400.461	400.444	400.461	0	0
1194.46	292.222	542.866	542.866	542.866	542.866	542.897	542.866	542.897	0	0
1194.56	292.122	539.492	539.492	539.492	539.492	539.549	539.492	539.549	0	0
1194.66	292.022	731.592	731.592	731.592	731.592	731.694	731.592	731.694	0	0
1194.76	291.922	573.454	573.454	573.454	573.454	573.633	573.454	573.634	0	0
1194.86	291.822	552.118	552.118	552.118	552.118	552.428	552.118	552.428	0	0
1194.96	291.722	477.862	477.862	477.862	477.862	478.387	477.862	478.387	0	0
1195.06	291.622	432.28	432.28	432.28	432.281	433.158	432.28	433.159	0	0
1195.16	291.522	546.068	546.068	546.068	546.069	547.513	546.068	547.514	0	0
1195.26	291.422	441.742	441.742	441.742	441.745	444.074	441.742	444.077	0	0
1195.36	291.322	405.47	405.47	405.47	405.475	409.165	405.47	409.17	0	0
1195.46	291.222	361.158	361.158	361.158	361.169	366.935	361.158	366.946	0	0
1195.56	291.122	378.406	378.406	378.406	378.427	387.282	378.406	387.303	0	0
1195.66	291.022	366.916	411.659	411.659	411.698	425.047	411.659	425.086	0.679054	2.90852
1195.76	290.922	489.652	411.661	411.661	411.734	431.491	411.661	431.564	-0.586989	-2.90441
1195.86	290.822	523.77	411.664	411.664	411.796	440.613	411.664	440.745	-0.811192	-4.15125
1195.96	290.722	307.098	411.666	411.666	411.903	453.169	411.666	453.406	1.86688	7.31542
1196.06	290.622	517.822	411.669	411.669	412.089	470.074	411.669	470.494	-0.465065	-2.3664
1196.16	290.522	507.732	411.671	411.671	412.402	492.344	411.671	493.075	-0.14545	-0.732851
1196.26	290.422	361.958	411.673	411.673	412.918	521.274	411.673	522.52	1.88711	8.02808
1196.36	290.322	535.708	411.676	411.676	413.761	557.708	411.676	559.793	0.232683	1.20424
1196.46	290.222	505.476	411.678	411.678	415.13	602.396	411.678	605.848	0.998265	5.01858
1196.56	290.122	666.89	411.684	411.685	417.291	655.719	411.684	661.327	-0.0481722	-0.278169
1196.66	290.022	897.092	411.696	411.698	420.635	717.693	411.696	726.633	-1.27259	-8.52297
1196.76	289.922	722.764	411.704	411.707	425.702	786.873	411.704	800.873	0.649666	3.90547
1196.86	289.822	887.818	411.716	411.721	433.355	861.088	411.716	882.732	-0.0381692	-0.254308
1196.96	289.722	1283.7	411.737	411.748	444.574	937.083	411.737	969.93	-1.95821	-15.6883
1197.06	289.622	851.826	411.748	411.769	460.67	1010.3	411.748	1059.24	1.58908	10.3707
1197.16	289.522	1169.33	411.767	411.807	483.38	1075.65	411.767	1147.3	-0.144045	-1.10142
1197.26	289.422	1241.47	411.788	411.863	515.071	1128	411.788	1231.36	-0.0641534	-0.505443
1197.36	289.322	1303.02	411.81	411.951	558.014	1162.74	411.81	1309.08	0.0375812	0.30334
1197.46	289.222	1582.49	411.838	412.101	614.966	1175.89	411.838	1379.28	-1.14225	-10.1605
1197.56	289.122	1304.45	411.861	412.336	688.941	1166.81	411.861	1444.36	0.866221	6.99564
1197.66	289.022	1480.94	411.887	412.734	783.338	1136.39	411.887	1508.68	0.161221	1.38732
1197.76	288.922	1448.38	411.913	413.396	900.025	1087.42	411.913	1577.02	0.755794	6.43176
1197.86	288.822	1604.35	411.942	414.507	1040.41	1024.06	411.942	1655.08	0.283228	2.53671
1197.96	288.722	1386.19	411.966	416.315	1204.54	951.961	411.966	1748.88	2.17826	18.1345
1198.06	288.622	2144.44	412.009	419.245	1390.42	876.235	412.009	1861.88	-1.36437	-14.1278
1198.16	288.522	2263.76	412.055	423.911	1592.24	801.369	412.055	1993.41	-1.27054	-13.5173
1198.26	288.422	2335.8	412.102	431.245	1801.84	731.116	412.102	2139.99	-0.905934	-9.79038
1198.36	288.322	2439.8	412.153	442.487	2008	667.784	412.153	2293.96	-0.660202	-7.29187
1198.46	288.222	2439.42	412.203	459.394	2196.44	612.667	412.203	2444.1	0.0211912	0.234037
1198.56	288.122	2607.98	412.258	484.545	2352.96	566.252	412.257	2579.24	-0.125847	-1.43708
1198.66	288.022	2757.48	412.318	521.312	2464.27	528.433	412.315	2689.39	-0.289956	-3.40466
1198.76	287.922	2309.14	412.369	573.707	2519.45	498.234	412.362	2766.68	2.12906	22.877
1198.86	287.822	2424.76	412.431	646.918	2512.22	474.709	412.412	2809.04	1.74503	19.2142
1198.96	287.722	2856.76	412.52	747.823	2444.73	456.852	412.472	2824.51	-0.134929	-1.6126
1199.06	287.622	2813.96	412.65	883.959	2323.42	443.646	412.532	2826.08	0.0510791	0.605881
1199.16	287.522	2360.1	412.865	1062.89	2158.84	433.997	412.58	2830.86	2.16679	23.5378
1199.26	287.422	3553.22	413.32	1292.83	1965.13	427.131	412.657	2860.44	-2.59879	-34.6392
1199.36	287.322	2724.56	414.22	1582.61	1757.4	422.33	412.715	2938.42	0.916152	10.693
1199.46	287.222	3026.58	416.076	1937.87	1548.67	419.075	412.779	3083.35	0.230748	2.83857
1199.56	287.122	3410.12	419.91	2360.08	1349.75	416.9	412.853	3308.08	-0.390744	-5.10225
1199.66	287.022	3985.2	427.574	2846.52	1168.64	415.495	412.942	3619.41	-1.29568	-18.2897
1199.76	286.922	4504.8	442.448	3388.71	1009.49	414.628	413.043	4016.14	-1.628	-24.433
1199.86	286.822	4711.64	470.822	3967.4	874.083	414.12	413.149	4486.98	-0.731856	-11.233
1199.96	286.722	5135.38	522.609	4555.31	762.564	413.849	413.266	5014.53	-0.377086	-6.04243
1200.06	286.622	5473.08	615.477	5118.31	673.246	413.735	413.391	5580.59	0.324956	5.37559
1200.16	286.522	5735.72	775.863	5614.8	603.167	413.722	413.523	6166.98	1.27331	21.5631
1200.26	286.422	6279.56	1043.53	6004.11	549.465	413.782	413.668	6769.89	1.38359	24.5165
1200.36	286.322	7028.52	1480.54	6252.81	509.425	413.896	413.831	7415.18	1.03128	19.3328
1200.46	286.222	7772.78	2162.79	6337.53	480.201	414.049	414.013	8152.53	0.963159	18.9877
1200.56	286.122	9485.58	3200.93	6245.6	459.233	414.257	414.238	9077.31	-0.937354	-20.4136
1200.66	286.022	10903.3	4719.23	5989.07	444.527	414.507	414.497	10323.8	-1.24083	-28.9718
1200.76	285.922	12032.7	6851.86	5593.71	434.516	414.79	414.785	12050.5	0.0362736	0.88973
1200.86	285.822	14546.9	9747.37	5094.15	427.895	415.137	415.134	14439.2	-0.199676	-5.38511
1200.96	285.722	18126.4	13476.8	4529.57	423.675	415.574	415.572	17598.9	-0.875988	-26.3717
1201.06	285.622	21571	18061.4	3941.91	421.145	416.096	416.095	21592.3	0.0323685	1.06302
1201.16	285.522	26215.6	23362	3365.36	419.835	416.734	416.733	26313.7	0.135513	4.90621
1201.26	285.422	31286	29066.6	2826.02	419.373	417.497	417.497	31477	0.241522	9.55248
1201.36	285.322	35417.6	34670.4	2343.38	419.475	418.363	418.362	36596.5	1.40072	58.9449
1201.46	285.222	41701.8	39533.6	1925.82	420.031	419.383	419.383	41040.7	-0.723917	-33.0561
1201.56	285.122	43902.6	42970.5	1575.22	420.831	420.459	420.459	44125.6	0.237996	11.1507
1201.66	285.022	45346.4	44441.9	1289.06	421.78	421.57	421.57	45309.6	-0.0386904	-1.8423
1201.76	284.922	45501	43730.2	1063.04	422.801	422.685	422.685	44370.6	-1.18493	-56.518
1201.86	284.822	41390.6	40898	887.672	423.761	423.698	423.698	41362	-0.031425	-1.42959
1201.96	284.722	36785.8	36458.3	754.513	424.631	424.597	424.597	36788.2	0.0028217	0.121014
1202.06	284.622	30878	31030.6	655.583	425.369	425.351	425.351	31260.8	0.487137	19.1408
1202.16	284.522	24752.8	25296	584.259	425.961	425.952	425.952	25454.4	0.997093	35.0779
1202.26	284.422	20236.6	19808.9	533.362	426.447	426.442	426.442	19915.9	-0.504157	-16.0369
1202.36	284.322	14663.7	14964.8	497.695	426.797	426.794	426.794	15035.7	0.687086	18.6045
1202.46	284.222	10055.6	10934.7	473.185	427.034	427.032	427.032	10980.8	2.06324	46.2635
1202.56	284.122	8037.22	7763.67	456.882	427.221	427.221	427.221	7793.33	-0.6083	-12.1943
1202.66	284.022	6230.04	5386.05	446.083	427.364	427.364	427.364	5404.76	-2.33797	-41.2638
1202.76	283.922	4291.1	3668.34	439.055	427.46	427.46	427.46	3679.94	-2.08621	-30.5582
1202.86	283.822	3079.76	2486.49	434.574	427.525	427.525	427.525	2493.54	-2.36205	-29.3112
1202.96	283.722	1996.1	1694.5	431.802	427.564	427.564	427.564	1698.73	-1.48829	-14.8684
1203.06	283.622	1887.08	1184.24	430.1	427.6	427.6	427.6	1186.74	-3.60492	-35.0167
1203.16	283.522	1890.08	867.117	429.083	427.636	427.636	427.636	868.564	-5.25398	-51.0756
1203.26	283.422	1224.15	674.697	428.478	427.656	427.656	427.656	675.519	-3.50628	-27.4315
1203.36	283.322	1431.76	563.171	428.143	427.681	427.681	427.681	563.633	-5.13019	-43.4064
1203.46	283.222	1253.12	499.685	427.956	427.701	427.701	427.701	499.94	-4.75759	-37.6589
1203.56	283.122	1084.24	464.841	427.855	427.718	427.718	427.718	464.978	-4.20531	-30.9633
1203.66	283.022	977.168	446.39	427.804	427.731	427.731	427.731	446.463	-3.79624	-26.5352
1203.76	282.922	682.652	436.795	427.776	427.737	427.737	427.737	436.834	-2.10378	-12.2909
1203.86	282.822	898.532	432.047	427.769	427.749	427.749	427.749	432.067	-3.47966	-23.3232
1203.96	282.722	578.006	429.727	427.763	427.753	427.753	427.753	429.737	-1.37902	-7.41347
1204.06	282.622	603.202	428.636	427.762	427.757	427.757	427.757	428.641	-1.58929	-8.72807
1204.16	282.522	658.036	428.145	427.765	427.763	427.763	427.763	428.147	-2.00391	-11.4944
1204.26	282.422	646.412	427.928	427.769	427.768	427.768	427.768	427.929	-1.92153	-10.9241
1204.36	282.322	702.83	427.841	427.776	427.775	427.775	427.775	427.841	-2.3194	-13.7494
1204.46	282.222	667.89	427.807	427.781	427.781	427.781	427.781	427.807	-2.07727	-12.0041
1204.56	282.122	349.11	427.793	427.783	427.783	427.783	427.783	427.793	0.941639	3.93415
1204.66	282.022	369.72	427.788	427.784	427.784	427.784	427.784	427.788	0.675284	2.90341
1204.76	281.922	472.58	427.787	427.785	427.785	427.785	427.785	427.787	-0.460744	-2.23966
1204.86	281.822	520.08	427.788	427.788	427.788	427.788	427.788	427.788	-0.904926	-4.61459
1204.96	281.722	362.862	427.789	427.789	427.789	427.789	427.789	427.79	0.762154	3.24638
1205.06	281.622	400.426	400.426	400.426	400.426	400.426	400.426	400.426	0	0
1205.16	281.522	359.332	359.332	359.332	359.332	359.332	359.332	359.332	0	0
1205.26	281.422	387.414	387.414	387.414	387.414	387.414	387.414	387.414	0	0
1205.36	281.322	246.642	246.642	246.642	246.642	246.642	246.642	246.642	0	0
1205.46	281.222	241.518	241.518	241.518	241.518	241.518	241.518	241.518	0	0
1205.56	281.122	194.422	194.422	194.422	194.422	194.422	194.422	194.422	0	0
1205.66	281.022	429.122	429.122	429.122	429.122	429.122	429.122	429.122	0	0
1205.76	280.922	219.252	219.252	219.252	219.252	219.252	219.252	219.252	0	0
1205.86	280.822	472.888	472.888	472.888	472.888	472.888	472.888	472.888	0	0
1205.96	280.722	332.966	332.966	332.966	332.966	332.966	332.966	332.966	0	0
1206.06	280.622	317.622	317.622	317.622	317.622	317.622	317.622	317.622	0	0
1206.16	280.522	396.782	396.782	396.782	396.782	396.782	396.782	396.782	0	0
1206.26	280.422	315.348	315.348	315.348	315.348	315.348	315.348	315.348	0	0
1206.36	280.322	210.102	210.102	210.102	210.102	210.102	210.102	210.102	0	0
1206.46	280.222	172.516	172.516	172.516	172.516	172.516	172.516	172.516	0	0
1206.56	280.122	349.114	349.114	349.114	349.114	349.114	349.114	349.114	0	0
1206.66	280.022	163.872	163.872	163.872	163.872	163.872	163.872	163.872	0	0
1206.76	279.922	170.075	170.075	170.075	170.075	170.075	170.075	170.075	0	0
1206.86	279.822	257.6	257.6	257.6	257.6	257.6	257.6	257.6	0	0
1206.96	279.722	309.286	309.286	309.286	309.286	309.286	309.286	309.286	0	0
1207.06	279.622	178.18	178.18	178.18	178.18	178.18	178.18	178.18	0	0
1207.16	279.522	168.235	168.235	168.235	168.235	168.235	168.235	168.235	0	0
1207.26	279.422	194.742	194.742	194.742	194.742	194.742	194.742	194.742	0	0
1207.36	279.322	261.466	261.466	261.466	261.466	261.466	261.466	261.466	0	0
1207.46	279.222	118.552	118.552	118.552	118.552	118.552	118.552	118.552	0	0
1207.56	279.122	130.434	130.434	130.434	130.434	130.434	130.434	130.434	0	0
1207.66	279.022	209.9	209.9	209.9	209.9	209.9	209.9	209.9	0	0
1207.76	278.922	173.898	173.898	173.898	173.898	173.898	173.898	173.898	0	0
1207.86	278.822	176.966	176.966	176.966	176.966	176.966	176.966	176.966	0	0
1207.96	278.722	228.92	228.92	228.92	228.92	228.92	228.92	228.92	0	0