File: XPS/XPS/241019_195-1.3.csv
C1s Scan
	Characteristic Energy eV	1486.68	Acquisition Time s	0.05
KE_C1s Scan	BE_C1s Scan	CPS_C1s Scan	C-C/C-H_1_C1s Scan	C-O_2_C1s Scan	C=O_3_C1s Scan	O-C=O_4_C1s Scan	Background_C1s Scan	Envelope_C1s Scan	Normalised_Residual_C1s Scan	Residual_C1s Scan
1189.01	297.666	1712.31	1712.31	1712.31	1712.31	1712.31	1712.31	1712.31	0	0
1189.11	297.566	1779.99	1779.99	1779.99	1779.99	1779.99	1779.99	1779.99	0	0
1189.21	297.466	1578.91	1578.91	1578.91	1578.91	1578.91	1578.91	1578.91	0	0
1189.31	297.366	1877.82	1877.82	1877.82	1877.82	1877.82	1877.82	1877.82	0	0
1189.41	297.266	1747.94	1747.94	1747.94	1747.94	1747.94	1747.94	1747.94	0	0
1189.51	297.166	1763.77	1763.77	1763.77	1763.77	1763.77	1763.77	1763.77	0	0
1189.61	297.066	1618.99	1618.99	1618.99	1618.99	1618.99	1618.99	1618.99	0	0
1189.71	296.966	1544.38	1544.38	1544.38	1544.38	1544.38	1544.38	1544.38	0	0
1189.81	296.866	1429.46	1429.46	1429.46	1429.46	1429.46	1429.46	1429.46	0	0
1189.91	296.766	1293.69	1293.69	1293.69	1293.69	1293.69	1293.69	1293.69	0	0
1190.01	296.666	1546.73	1546.73	1546.73	1546.73	1546.73	1546.73	1546.73	0	0
1190.11	296.566	1456.12	1456.12	1456.12	1456.12	1456.12	1456.12	1456.12	0	0
1190.21	296.466	1584.25	1584.25	1584.25	1584.25	1584.25	1584.25	1584.25	0	0
1190.31	296.366	1508.88	1508.88	1508.88	1508.88	1508.88	1508.88	1508.88	0	0
1190.41	296.266	1511.98	1511.98	1511.98	1511.98	1511.98	1511.98	1511.98	0	0
1190.51	296.166	1526.63	1526.63	1526.63	1526.63	1526.63	1526.63	1526.63	0	0
1190.61	296.066	1290.11	1290.11	1290.11	1290.11	1290.11	1290.11	1290.11	0	0
1190.71	295.966	1447.21	1447.21	1447.21	1447.21	1447.21	1447.21	1447.21	0	0
1190.81	295.866	1414.01	1414.01	1414.01	1414.01	1414.01	1414.01	1414.01	0	0
1190.91	295.766	1502.59	1502.59	1502.59	1502.59	1502.59	1502.59	1502.59	0	0
1191.01	295.666	1004.44	1004.44	1004.44	1004.44	1004.44	1004.44	1004.44	0	0
1191.11	295.566	1364.42	1364.42	1364.42	1364.42	1364.42	1364.42	1364.42	0	0
1191.21	295.466	1313.81	1313.81	1313.81	1313.81	1313.81	1313.81	1313.81	0	0
1191.31	295.366	1160.78	1160.78	1160.78	1160.78	1160.78	1160.78	1160.78	0	0
1191.41	295.266	1253.09	1253.09	1253.09	1253.09	1253.09	1253.09	1253.09	0	0
1191.51	295.166	1375.18	1375.18	1375.18	1375.18	1375.18	1375.18	1375.18	0	0
1191.61	295.066	1181.44	1181.44	1181.44	1181.44	1181.44	1181.44	1181.44	0	0
1191.71	294.966	1263.1	1263.1	1263.1	1263.1	1263.1	1263.1	1263.1	0	0
1191.81	294.866	1009.91	1009.91	1009.91	1009.91	1009.91	1009.91	1009.91	0	0
1191.91	294.766	1012.26	1012.26	1012.26	1012.26	1012.26	1012.26	1012.26	0	0
1192.01	294.666	941.126	941.126	941.126	941.126	941.126	941.126	941.126	0	0
1192.11	294.566	982.208	982.208	982.208	982.208	982.208	982.208	982.208	0	0
1192.21	294.466	1181.31	1181.31	1181.31	1181.31	1181.31	1181.31	1181.31	0	0
1192.31	294.366	1005.54	1005.54	1005.54	1005.54	1005.54	1005.54	1005.54	0	0
1192.41	294.266	983.522	983.522	983.522	983.522	983.522	983.522	983.522	0	0
1192.51	294.166	886.114	886.114	886.114	886.114	886.114	886.114	886.114	0	0
1192.61	294.066	832.568	832.568	832.568	832.568	832.568	832.568	832.568	0	0
1192.71	293.966	868.224	868.224	868.224	868.224	868.224	868.224	868.224	0	0
1192.81	293.866	886.806	886.806	886.806	886.806	886.806	886.806	886.806	0	0
1192.91	293.766	952.464	952.464	952.464	952.464	952.464	952.464	952.464	0	0
1193.01	293.666	720.232	720.232	720.232	720.232	720.232	720.232	720.232	0	0
1193.11	293.566	861.592	861.592	861.592	861.592	861.592	861.592	861.592	0	0
1193.21	293.466	641.396	641.396	641.396	641.396	641.396	641.396	641.396	0	0
1193.31	293.366	776.6	776.6	776.6	776.6	776.6	776.6	776.6	0	0
1193.41	293.266	988.236	988.236	988.236	988.236	988.236	988.236	988.236	0	0
1193.51	293.166	700.478	700.478	700.478	700.478	700.478	700.478	700.478	0	0
1193.61	293.066	915.572	915.572	915.572	915.572	915.572	915.572	915.572	0	0
1193.71	292.966	955.73	955.73	955.73	955.73	955.73	955.73	955.73	0	0
1193.81	292.866	824.722	824.722	824.722	824.722	824.722	824.722	824.722	0	0
1193.91	292.766	877.684	877.684	877.684	877.684	877.684	877.684	877.684	0	0
1194.01	292.666	827.8	827.8	827.8	827.8	827.8	827.8	827.8	0	0
1194.11	292.566	888.486	888.486	888.486	888.486	888.487	888.486	888.487	0	0
1194.21	292.466	684.956	684.956	684.956	684.956	684.958	684.956	684.958	0	0
1194.31	292.366	761.418	761.418	761.418	761.418	761.422	761.418	761.422	0	0
1194.41	292.266	585.402	585.402	585.402	585.402	585.41	585.402	585.41	0	0
1194.51	292.166	610.1	610.1	610.1	610.1	610.117	610.1	610.117	0	0
1194.61	292.066	744.716	744.716	744.716	744.716	744.749	744.716	744.749	0	0
1194.71	291.966	696.79	696.79	696.79	696.79	696.853	696.79	696.853	0	0
1194.81	291.866	664.728	664.728	664.728	664.728	664.847	664.728	664.847	0	0
1194.91	291.766	696.26	696.26	696.26	696.26	696.48	696.26	696.48	0	0
1195.01	291.666	497.28	497.28	497.28	497.281	497.678	497.28	497.679	0	0
1195.11	291.566	653.408	653.408	653.408	653.41	654.115	653.408	654.117	0	0
1195.21	291.466	624.122	624.122	624.122	624.126	625.353	624.122	625.357	0	0
1195.31	291.366	761.948	761.948	761.948	761.956	764.051	761.948	764.059	0	0
1195.41	291.266	706.906	706.906	706.906	706.922	710.43	706.906	710.447	0	0
1195.51	291.166	546.732	546.732	546.732	546.765	552.531	546.732	552.563	0	0
1195.61	291.066	704.89	765.88	765.88	765.945	775.235	765.88	775.3	0.593007	3.52051
1195.71	290.966	1046.11	765.738	765.738	765.864	780.538	765.738	780.664	-1.83515	-13.2723
1195.81	290.866	716.508	765.713	765.713	765.954	788.669	765.713	788.91	0.604822	3.62012
1195.91	290.766	545.14	765.601	765.601	766.053	800.51	765.601	800.961	2.45001	12.7911
1196.01	290.666	793.57	765.587	765.587	766.417	817.62	765.587	818.45	0.197489	1.244
1196.11	290.566	659.164	765.533	765.533	767.027	841.541	765.533	843.035	1.6014	9.19354
1196.21	290.466	577.218	765.438	765.438	768.079	874.21	765.438	876.851	2.78872	14.9817
1196.31	290.366	797.374	765.422	765.422	770.003	917.858	765.422	922.439	0.990356	6.25327
1196.41	290.266	626.536	765.351	765.352	773.145	974.44	765.351	982.234	3.17756	17.7849
1196.51	290.166	802.674	765.333	765.333	778.333	1045.85	765.333	1058.85	2.02185	12.8087
1196.61	290.066	1021.76	765.203	765.205	786.47	1132.99	765.203	1154.25	0.926834	6.62463
1196.71	289.966	1086.91	765.04	765.044	799.154	1235.81	765.04	1269.93	1.24131	9.15088
1196.81	289.866	1279.12	764.779	764.788	818.439	1352.4	764.779	1406.07	0.793686	6.34731
1196.91	289.766	1908.34	764.2	764.219	846.957	1478.48	764.2	1561.25	-1.77665	-17.3546
1197.01	289.666	1782.92	763.684	763.723	888.81	1607.97	763.684	1733.14	-0.263647	-2.48929
1197.11	289.566	2079.48	763.017	763.096	948.458	1731.99	763.017	1917.51	-0.794204	-8.09832
1197.21	289.466	2000.38	762.39	762.548	1031.71	1840.58	762.39	2110.06	0.548326	5.48378
1197.31	289.366	2677.1	761.42	761.73	1144.58	1922.87	761.42	2306.34	-1.60231	-18.538
1197.41	289.266	2722.02	760.427	761.021	1294.21	1970.54	760.427	2504.91	-0.930507	-10.8555
1197.51	289.166	2469.84	759.561	760.679	1487.26	1978.38	759.561	2707.19	1.06793	11.8675
1197.61	289.066	2710.24	758.573	760.636	1728.73	1945.16	758.573	2917.38	0.889693	10.3569
1197.71	288.966	3215.16	757.329	761.062	2021.03	1874.42	757.329	3141.86	-0.289077	-3.66522
1197.81	288.866	3479.3	755.95	762.576	2362.55	1773.76	755.95	3386.98	-0.349966	-4.6159
1197.91	288.766	3524.84	754.547	766.08	2745.64	1653.11	754.547	3655.74	0.493001	6.54489
1198.01	288.666	3817.8	752.995	772.683	3155.16	1522.73	752.995	3944.58	0.458814	6.33912
1198.11	288.566	4232.4	751.233	784.194	3568.06	1391.98	751.232	4241.78	0.0322277	0.468822
1198.21	288.466	4260.88	749.455	803.578	3954.88	1268.55	749.455	4528.1	0.915388	13.361
1198.31	288.366	4874.74	747.365	834.557	4282.19	1157.2	747.365	4779.22	-0.305917	-4.776
1198.41	288.266	4866.44	745.28	883.145	4518.26	1061.01	745.278	4971.86	0.337927	5.27124
1198.51	288.166	5613.42	742.816	956.546	4637.37	980.415	742.812	5088.71	-1.566	-26.2355
1198.61	288.066	5216.46	740.557	1065.39	4626.48	915.367	740.546	5126.15	-0.27959	-4.51538
1198.71	287.966	4932.6	738.448	1222.34	4486.56	864.277	738.422	5096.37	0.521404	8.18836
1198.81	287.866	5130.7	736.258	1442.66	4232.79	824.901	736.197	5028.02	-0.320526	-5.13377
1198.91	287.766	5173.8	734.086	1744.32	3891.79	795.184	733.949	4963.54	-0.653648	-10.5132
1199.01	287.666	4666.26	732.256	2146.97	3496.3	773.377	731.957	4953.04	0.938748	14.339
1199.11	287.566	4789.16	730.539	2669.44	3078.85	757.374	729.901	5046.49	0.831484	12.8667
1199.21	287.466	5244.92	728.949	3327.74	2667.98	745.488	727.614	5287.31	0.130884	2.11954
1199.31	287.366	5504.16	727.909	4131.51	2285.67	736.597	725.194	5706.1	0.60865	10.0971
1199.41	287.266	6323.96	727.727	5078.78	1945.8	729.492	722.358	6314.73	-0.025965	-0.461708
1199.51	287.166	7396.82	729.396	6151.68	1655.21	723.354	718.977	7102.71	-0.764674	-14.7056
1199.61	287.066	7837.72	735.072	7312.57	1415.39	718.004	715.37	8034.92	0.498081	9.86007
1199.71	286.966	9443.52	747.195	8500.79	1222.78	712.503	710.949	9050.42	-0.904526	-19.655
1199.81	286.866	10291.5	771.31	9636.44	1072.32	706.995	706.095	10068.8	-0.490846	-11.1344
1199.91	286.766	10996.6	815.536	10626.2	957.611	701.393	700.882	10998.1	0.00327215	0.0767266
1200.01	286.666	11252.6	891.755	11376.2	871.874	695.821	695.537	11749	1.04641	24.8206
1200.11	286.566	12503.9	1017.14	11806.7	808.259	689.71	689.555	12253.1	-0.50152	-12.54
1200.21	286.466	12589.2	1218.64	11867.2	761.859	683.61	683.527	12480.7	-0.216067	-5.42092
1200.31	286.366	11971.1	1528.81	11552.6	728.491	677.852	677.808	12454.3	0.987617	24.1624
1200.41	286.266	12261.5	1990.09	10897.5	704.095	671.963	671.94	12247.8	-0.0275741	-0.682745
1200.51	286.166	11986.5	2662.07	9972.12	686.214	666.22	666.208	11988	0.00310707	0.0760645
1200.61	286.066	12103.7	3601.2	8866.88	672.621	660.42	660.414	11819.9	-0.5769	-14.192
1200.71	285.966	11674	4869.89	7677.32	662.139	654.837	654.835	11899.7	0.467028	11.2834
1200.81	285.866	12135.5	6531.39	6489.04	653.305	649.02	649.019	12375.7	0.487565	12.0101
1200.91	285.766	14083.4	8617.08	5369.06	644.68	642.213	642.213	13346.4	-1.38871	-36.8512
1201.01	285.666	15195.7	11119.1	4363.59	636.232	634.84	634.84	14849.2	-0.628538	-17.3252
1201.11	285.566	16757.9	13978	3496.99	627.443	626.673	626.672	16849.1	0.157552	4.56055
1201.21	285.466	18709.5	17053.3	2775.94	617.93	617.512	617.512	19212.2	0.821649	25.1306
1201.31	285.366	21355	20121.6	2194.02	607.229	607.006	607.006	21708.8	0.541416	17.6915
1201.41	285.266	24150.6	22901.1	1736.84	595.195	595.079	595.079	24042.9	-0.154906	-5.38291
1201.51	285.166	26045.4	25064.9	1386.41	582.246	582.186	582.186	25869.1	-0.244223	-8.81328
1201.61	285.066	26527.4	26350.4	1123.91	569.072	569.043	569.043	26905.3	0.51883	18.8954
1201.71	284.966	27130.2	26582.3	930.695	555.602	555.587	555.587	26957.4	-0.234598	-8.64046
1201.81	284.866	26520.8	25701.7	790.975	542.44	542.433	542.433	25950.2	-0.783467	-28.5298
1201.91	284.766	24550.2	23851.6	691.706	530.275	530.271	530.271	24013.1	-0.766556	-26.8569
1202.01	284.666	20480.2	21277.5	623.045	520.166	520.165	520.165	21380.4	1.4065	45.0084
1202.11	284.566	18309.1	18275.4	575.478	511.154	511.153	511.153	18339.7	0.0506139	1.5314
1202.21	284.466	15267.6	15154.9	543.122	503.678	503.677	503.677	15194.4	-0.132497	-3.6608
1202.31	284.366	12174.4	12166.9	521.487	497.765	497.765	497.765	12190.6	0.0328177	0.809687
1202.41	284.266	9340.1	9485.69	507.278	493.286	493.286	493.286	9499.68	0.369222	7.979
1202.51	284.166	7069.44	7211.93	498.048	489.954	489.954	489.954	7220.03	0.400484	7.52944
1202.61	284.066	5505.76	5364.3	492.005	487.413	487.413	487.413	5368.89	-0.412455	-6.84337
1202.71	283.966	3782.22	3922.48	488.299	485.744	485.744	485.744	3925.03	0.519247	7.14057
1202.81	283.866	2631.38	2846.42	486.051	484.657	484.657	484.657	2847.81	0.943432	10.8215
1202.91	283.766	2237.18	2063.34	484.515	483.769	483.769	483.769	2064.09	-0.818305	-8.65467
1203.01	283.666	2137.06	1511.09	483.323	482.932	482.932	482.932	1511.48	-3.02593	-31.2789
1203.11	283.566	1324.99	1136.23	482.706	482.505	482.505	482.505	1136.44	-1.15827	-9.42762
1203.21	283.466	1288.05	887.563	482.199	482.097	482.097	482.097	887.664	-2.4946	-20.0195
1203.31	283.366	1317.03	726.555	481.724	481.674	481.674	481.674	726.605	-3.63791	-29.5212
1203.41	283.266	950.66	625.832	481.461	481.437	481.437	481.437	625.856	-2.35556	-16.2402
1203.51	283.166	1007.53	564.431	481.182	481.17	481.17	481.17	564.442	-3.12139	-22.1545
1203.61	283.066	976.598	527.659	480.925	480.919	480.919	480.919	527.664	-3.21225	-22.4467
1203.71	282.966	793.312	506.321	480.763	480.761	480.761	480.761	506.323	-2.27839	-14.3494
1203.81	282.866	823.158	494.3	480.589	480.587	480.587	480.587	494.302	-2.56301	-16.4428
1203.91	282.766	696.582	487.637	480.479	480.478	480.478	480.478	487.637	-1.77023	-10.4472
1204.01	282.666	654.092	484.022	480.39	480.39	480.39	480.39	484.022	-1.48694	-8.50348
1204.11	282.566	615.648	482.132	480.322	480.322	480.322	480.322	482.132	-1.20324	-6.67578
1204.21	282.466	584.27	481.148	480.269	480.269	480.269	480.269	481.148	-0.953957	-5.15609
1204.31	282.366	661.53	480.592	480.177	480.177	480.177	480.177	480.592	-1.57304	-9.04692
1204.41	282.266	691.602	480.261	480.07	480.07	480.07	480.07	480.261	-1.79697	-10.567
1204.51	282.166	487.93	480.152	480.066	480.066	480.066	480.066	480.152	-0.0787316	-0.388877
1204.61	282.066	442.556	480.085	480.047	480.047	480.047	480.047	480.085	0.398903	1.87645
1204.71	281.966	428.502	480.037	480.021	480.021	480.021	480.021	480.037	0.556688	2.57676
1204.81	281.866	462.274	480.019	480.012	480.012	480.012	480.012	480.019	0.184546	0.887238
1204.91	281.766	433.726	479.991	479.989	479.989	479.989	479.989	479.991	0.496744	2.31327
1205.01	281.666	537.964	479.96	479.959	479.959	479.959	479.959	479.96	-0.559196	-2.90019
1205.11	281.566	413.068	479.926	479.925	479.925	479.925	479.925	479.926	0.735573	3.34289
1205.21	281.466	488.744	488.744	488.744	488.744	488.744	488.744	488.744	0	0
1205.31	281.366	396.524	396.524	396.524	396.524	396.524	396.524	396.524	0	0
1205.41	281.266	343.492	343.492	343.492	343.492	343.492	343.492	343.492	0	0
1205.51	281.166	461.136	461.136	461.136	461.136	461.136	461.136	461.136	0	0
1205.61	281.066	423.966	423.966	423.966	423.966	423.966	423.966	423.966	0	0
1205.71	280.966	344.988	344.988	344.988	344.988	344.988	344.988	344.988	0	0
1205.81	280.866	495.626	495.626	495.626	495.626	495.626	495.626	495.626	0	0
1205.91	280.766	464.198	464.198	464.198	464.198	464.198	464.198	464.198	0	0
1206.01	280.666	511.306	511.306	511.306	511.306	511.306	511.306	511.306	0	0
1206.11	280.566	326.932	326.932	326.932	326.932	326.932	326.932	326.932	0	0
1206.21	280.466	489.416	489.416	489.416	489.416	489.416	489.416	489.416	0	0
1206.31	280.366	388.778	388.778	388.778	388.778	388.778	388.778	388.778	0	0
1206.41	280.266	392.322	392.322	392.322	392.322	392.322	392.322	392.322	0	0
1206.51	280.166	229.542	229.542	229.542	229.542	229.542	229.542	229.542	0	0
1206.61	280.066	259.988	259.988	259.988	259.988	259.988	259.988	259.988	0	0
1206.71	279.966	357.478	357.478	357.478	357.478	357.478	357.478	357.478	0	0
1206.81	279.866	406.368	406.368	406.368	406.368	406.368	406.368	406.368	0	0
1206.91	279.766	390.334	390.334	390.334	390.334	390.334	390.334	390.334	0	0
1207.01	279.666	365.326	365.326	365.326	365.326	365.326	365.326	365.326	0	0
1207.11	279.566	239.246	239.246	239.246	239.246	239.246	239.246	239.246	0	0
1207.21	279.466	395.84	395.84	395.84	395.84	395.84	395.84	395.84	0	0
1207.31	279.366	436.678	436.678	436.678	436.678	436.678	436.678	436.678	0	0
1207.41	279.266	411.12	411.12	411.12	411.12	411.12	411.12	411.12	0	0
1207.51	279.166	265.706	265.706	265.706	265.706	265.706	265.706	265.706	0	0
1207.61	279.066	391.586	391.586	391.586	391.586	391.586	391.586	391.586	0	0
1207.71	278.966	319.024	319.024	319.024	319.024	319.024	319.024	319.024	0	0
1207.81	278.866	289.404	289.404	289.404	289.404	289.404	289.404	289.404	0	0
1207.91	278.766	389.954	389.954	389.954	389.954	389.954	389.954	389.954	0	0
1208.01	278.666	396.142	396.142	396.142	396.142	396.142	396.142	396.142	0	0