File: XPS/XPS/250418_C-3.2.csv
C1s Scan
	Characteristic Energy eV	1486.68	Acquisition Time s	0.05
KE_C1s Scan	BE_C1s Scan	CPS_C1s Scan	C-C/C-H_1_C1s Scan	C-O_2_C1s Scan	C=O_3_C1s Scan	O-C=O_4_C1s Scan	Background_C1s Scan	Envelope_C1s Scan	Normalised_Residual_C1s Scan	Residual_C1s Scan
1188.93	297.752	1729.25	1729.25	1729.25	1729.25	1729.25	1729.25	1729.25	0	0
1189.03	297.652	2294.58	2294.58	2294.58	2294.58	2294.58	2294.58	2294.58	0	0
1189.13	297.552	1711.21	1711.21	1711.21	1711.21	1711.21	1711.21	1711.21	0	0
1189.23	297.452	1638.02	1638.02	1638.02	1638.02	1638.02	1638.02	1638.02	0	0
1189.33	297.352	1679.65	1679.65	1679.65	1679.65	1679.65	1679.65	1679.65	0	0
1189.43	297.252	1658.17	1658.17	1658.17	1658.17	1658.17	1658.17	1658.17	0	0
1189.53	297.152	1908.98	1908.98	1908.98	1908.98	1908.98	1908.98	1908.98	0	0
1189.63	297.052	1503.33	1503.33	1503.33	1503.33	1503.33	1503.33	1503.33	0	0
1189.73	296.952	1559.22	1559.22	1559.22	1559.22	1559.22	1559.22	1559.22	0	0
1189.83	296.852	1716.8	1716.8	1716.8	1716.8	1716.8	1716.8	1716.8	0	0
1189.93	296.752	1632.29	1632.29	1632.29	1632.29	1632.29	1632.29	1632.29	0	0
1190.03	296.652	1543.04	1543.04	1543.04	1543.04	1543.04	1543.04	1543.04	0	0
1190.13	296.552	1648.52	1648.52	1648.52	1648.52	1648.52	1648.52	1648.52	0	0
1190.23	296.452	1589.18	1589.18	1589.18	1589.18	1589.18	1589.18	1589.18	0	0
1190.33	296.352	1648.37	1648.37	1648.37	1648.37	1648.37	1648.37	1648.37	0	0
1190.43	296.252	1180.5	1180.5	1180.5	1180.5	1180.5	1180.5	1180.5	0	0
1190.53	296.152	1529.63	1529.63	1529.63	1529.63	1529.63	1529.63	1529.63	0	0
1190.63	296.052	1542.12	1542.12	1542.12	1542.12	1542.12	1542.12	1542.12	0	0
1190.73	295.952	1205.09	1205.09	1205.09	1205.09	1205.09	1205.09	1205.09	0	0
1190.83	295.852	1148.68	1148.68	1148.68	1148.68	1148.68	1148.68	1148.68	0	0
1190.93	295.752	1224.07	1224.07	1224.07	1224.07	1224.07	1224.07	1224.07	0	0
1191.03	295.652	1439.67	1439.67	1439.67	1439.67	1439.67	1439.67	1439.67	0	0
1191.13	295.552	1184.34	1184.34	1184.34	1184.34	1184.34	1184.34	1184.34	0	0
1191.23	295.452	1385.1	1385.1	1385.1	1385.1	1385.1	1385.1	1385.1	0	0
1191.33	295.352	1148.53	1148.53	1148.53	1148.53	1148.53	1148.53	1148.53	0	0
1191.43	295.252	1177.9	1177.9	1177.9	1177.9	1177.9	1177.9	1177.9	0	0
1191.53	295.152	1061.38	1061.38	1061.38	1061.38	1061.38	1061.38	1061.38	0	0
1191.63	295.052	1228.19	1228.19	1228.19	1228.19	1228.19	1228.19	1228.19	0	0
1191.73	294.952	1091.02	1091.02	1091.02	1091.02	1091.02	1091.02	1091.02	0	0
1191.83	294.852	1016.99	1016.99	1016.99	1016.99	1016.99	1016.99	1016.99	0	0
1191.93	294.752	1073.72	1073.72	1073.72	1073.72	1073.72	1073.72	1073.72	0	0
1192.03	294.652	1013.06	1013.06	1013.06	1013.06	1013.06	1013.06	1013.06	0	0
1192.13	294.552	870.492	870.492	870.492	870.492	870.492	870.492	870.492	0	0
1192.23	294.452	810.21	810.21	810.21	810.21	810.21	810.21	810.21	0	0
1192.33	294.352	864.152	864.152	864.152	864.152	864.152	864.152	864.152	0	0
1192.43	294.252	1013.67	1013.67	1013.67	1013.67	1013.67	1013.67	1013.67	0	0
1192.53	294.152	922.686	922.686	922.686	922.686	922.686	922.686	922.686	0	0
1192.63	294.052	902.854	902.854	902.854	902.854	902.854	902.854	902.854	0	0
1192.73	293.952	956.39	956.39	956.39	956.39	956.39	956.39	956.39	0	0
1192.83	293.852	724.036	724.036	724.036	724.036	724.036	724.036	724.036	0	0
1192.93	293.752	897.982	897.982	897.982	897.982	897.982	897.982	897.982	0	0
1193.03	293.652	898.68	898.68	898.68	898.68	898.68	898.68	898.68	0	0
1193.13	293.552	726.336	726.336	726.336	726.336	726.336	726.336	726.336	0	0
1193.23	293.452	614.228	614.228	614.228	614.228	614.228	614.228	614.228	0	0
1193.33	293.352	696.232	696.232	696.232	696.232	696.232	696.232	696.232	0	0
1193.43	293.252	649.53	649.53	649.53	649.53	649.53	649.53	649.53	0	0
1193.53	293.152	575.038	575.038	575.038	575.038	575.038	575.038	575.038	0	0
1193.63	293.052	559.426	559.426	559.426	559.426	559.426	559.426	559.426	0	0
1193.73	292.952	553.416	553.416	553.416	553.416	553.416	553.416	553.416	0	0
1193.83	292.852	603.936	603.936	603.936	603.936	603.936	603.936	603.936	0	0
1193.93	292.752	413.142	413.142	413.142	413.142	413.142	413.142	413.142	0	0
1194.03	292.652	715.882	715.882	715.882	715.882	715.882	715.882	715.882	0	0
1194.13	292.552	611.032	611.032	611.032	611.032	611.032	611.032	611.032	0	0
1194.23	292.452	507.282	507.282	507.282	507.282	507.282	507.282	507.282	0	0
1194.33	292.352	416.46	416.46	416.46	416.46	416.46	416.46	416.46	0	0
1194.43	292.252	333.904	333.904	333.904	333.904	333.905	333.904	333.905	0	0
1194.53	292.152	394.088	394.088	394.088	394.088	394.09	394.088	394.09	0	0
1194.63	292.052	382.072	382.072	382.072	382.072	382.075	382.072	382.075	0	0
1194.73	291.952	367.554	367.554	367.554	367.554	367.561	367.554	367.561	0	0
1194.83	291.852	266.678	266.678	266.678	266.678	266.691	266.678	266.691	0	0
1194.93	291.752	337.644	337.644	337.644	337.644	337.669	337.644	337.669	0	0
1195.03	291.652	220.86	220.86	220.86	220.86	220.908	220.86	220.908	0	0
1195.13	291.552	423.162	423.162	423.162	423.162	423.25	423.162	423.25	0	0
1195.23	291.452	368.404	368.404	368.404	368.404	368.564	368.404	368.564	0	0
1195.33	291.352	447.974	447.974	447.974	447.974	448.258	447.974	448.258	0	0
1195.43	291.252	276.856	276.856	276.856	276.856	277.349	276.856	277.349	0	0
1195.53	291.152	267.778	267.778	267.778	267.779	268.619	267.778	268.62	0	0
1195.63	291.052	331.602	291.342	291.342	291.343	292.748	291.342	292.749	-0.477085	-1.94263
1195.73	290.952	274.64	291.343	291.343	291.346	293.648	291.343	293.651	0.256514	0.950556
1195.83	290.852	370.534	291.346	291.346	291.353	295.052	291.346	295.059	-0.876751	-3.77377
1195.93	290.752	317.6	291.348	291.348	291.361	297.188	291.348	297.201	-0.255948	-1.01995
1196.03	290.652	392.94	291.352	291.352	291.378	300.376	291.352	300.402	-1.04386	-4.6269
1196.13	290.552	451.998	291.36	291.36	291.41	305.027	291.36	305.077	-1.54526	-7.34607
1196.23	290.452	349.426	291.363	291.363	291.456	311.649	291.363	311.742	-0.450775	-1.88418
1196.33	290.352	290.958	291.363	291.363	291.536	320.865	291.363	321.038	0.394323	1.50401
1196.43	290.252	348.484	291.365	291.365	291.679	333.389	291.365	333.703	-0.177052	-0.739055
1196.53	290.152	481.114	291.374	291.374	291.932	349.976	291.374	350.533	-1.33119	-6.52903
1196.63	290.052	475.142	291.383	291.383	292.354	371.338	291.383	372.309	-1.05489	-5.14165
1196.73	289.952	342.866	291.385	291.385	293.044	398.04	291.385	399.699	0.686318	2.84166
1196.83	289.852	434.62	291.392	291.392	294.172	430.362	291.392	433.142	-0.0158548	-0.0739096
1196.93	289.752	444.822	291.399	291.4	295.966	468.083	291.399	472.651	0.295041	1.39143
1197.03	289.652	486.02	291.408	291.41	298.764	510.319	291.408	517.676	0.321084	1.58282
1197.13	289.552	530.656	291.419	291.423	303.037	555.367	291.419	566.989	0.352675	1.81663
1197.23	289.452	741.54	291.44	291.448	309.43	600.68	291.44	618.678	-1.00887	-6.14308
1197.33	289.352	577.76	291.454	291.47	318.762	642.962	291.454	670.287	0.860758	4.62637
1197.43	289.252	735.44	291.474	291.508	332.105	678.562	291.474	719.226	-0.13369	-0.810694
1197.53	289.152	608.358	291.489	291.556	350.724	703.902	291.489	763.203	1.40379	7.74224
1197.63	289.052	759.198	291.511	291.641	376.101	716.263	291.511	800.983	0.339103	2.08927
1197.73	288.952	905.632	291.54	291.789	409.815	714.263	291.54	832.787	-0.541265	-3.64226
1197.83	288.852	956.18	291.571	292.037	453.422	698.138	291.571	860.456	-0.69221	-4.78622
1197.93	288.752	953.166	291.602	292.458	508.188	669.707	291.602	887.15	-0.478137	-3.30082
1198.03	288.652	940.822	291.632	293.173	574.751	631.984	291.632	916.644	-0.176259	-1.2089
1198.13	288.552	1069.42	291.669	294.389	652.802	588.591	291.669	952.445	-0.799815	-5.84854
1198.23	288.452	834.23	291.694	296.402	740.641	543.112	291.694	996.768	1.25834	8.12692
1198.33	288.352	922.986	291.723	299.714	834.911	498.668	291.723	1049.85	0.933718	6.34305
1198.43	288.252	1187.05	291.765	305.064	930.446	457.594	291.765	1109.57	-0.50283	-3.87383
1198.53	288.152	1467.22	291.82	313.521	1020.5	421.36	291.82	1171.74	-1.7249	-14.774
1198.63	288.052	1115.57	291.859	326.582	1097.39	390.625	291.859	1230.88	0.771995	5.76564
1198.73	287.952	998.4	291.892	346.368	1153.64	365.467	291.892	1281.69	2.00479	14.1647
1198.83	287.852	1232.97	291.938	375.725	1183.25	345.532	291.936	1320.64	0.558288	4.38349
1198.93	287.752	1267.04	291.987	418.311	1182.88	330.187	291.981	1347.42	0.504947	4.01907
1199.03	287.652	1302.69	292.044	478.696	1152.57	318.693	292.029	1365.92	0.39174	3.16157
1199.13	287.552	1432.32	292.126	562.327	1095.76	310.311	292.082	1384.27	-0.283892	-2.40247
1199.23	287.452	1746.35	292.267	675.333	1018.52	304.361	292.15	1414.03	-1.77819	-16.6161
1199.33	287.352	1693.63	292.517	824.083	928.344	300.232	292.215	1468.53	-1.22306	-11.2549
1199.43	287.252	1563.91	293.026	1014.59	832.875	297.434	292.275	1561.1	-0.0158578	-0.140228
1199.53	287.152	2047.4	294.164	1251.4	738.844	295.612	292.357	1702.95	-1.7022	-17.2225
1199.63	287.052	1633.03	296.619	1535.85	651.334	294.433	292.419	1900.98	1.48262	13.3971
1199.73	286.952	2037.1	301.952	1865.01	573.705	293.722	292.501	2156.88	0.59343	5.98909
1199.83	286.852	2290.64	313.173	2229.87	507.591	293.32	292.594	2466.17	0.820097	8.77665
1199.93	286.752	2876.5	335.995	2614.39	453.292	293.139	292.715	2818.67	-0.241115	-2.89162
1200.03	286.652	2365.98	380.749	2995.3	410.072	293.055	292.812	3200.74	3.83743	41.738
1200.13	286.552	3406.9	465.591	3343.84	376.739	293.094	292.958	3600.39	0.741246	9.67447
1200.23	286.452	4187.72	620.607	3628.8	351.762	293.215	293.14	4014.96	-0.596949	-8.63796
1200.33	286.352	4218.28	893.52	3821.37	333.511	293.364	293.323	4461.8	0.838395	12.1759
1200.43	286.252	4566.08	1356.32	3900.53	320.519	293.544	293.523	4990.35	1.40396	21.2135
1200.53	286.152	5834.34	2111.52	3857.31	311.557	293.793	293.782	5692.83	-0.414263	-7.0755
1200.63	286.052	6992.96	3295.57	3696.7	305.568	294.101	294.095	6709.66	-0.757544	-14.1652
1200.73	285.952	8366.46	5079.97	3436.62	301.733	294.475	294.472	8229.38	-0.335102	-6.85382
1200.83	285.852	10392.8	7647.59	3104.14	299.45	294.946	294.944	10461.3	0.150147	3.42271
1200.93	285.752	14478.8	11163.2	2730.38	298.349	295.608	295.607	13600.7	-1.63184	-43.9065
1201.03	285.652	18907.5	15719.7	2345.29	298.113	296.478	296.477	17770.2	-1.84953	-56.8676
1201.13	285.552	22320.8	21264	1973.89	298.464	297.507	297.507	22941.4	0.928823	31.0294
1201.23	285.452	30539	27520.8	1634.6	299.469	298.92	298.92	28857	-2.15217	-84.0985
1201.33	285.352	32941.6	33945	1338.15	300.755	300.446	300.446	34983	2.51498	102.068
1201.43	285.252	39843	39750.1	1089.32	302.465	302.294	302.294	40537.3	0.777808	34.7163
1201.53	285.152	43979	44043.7	887.622	304.428	304.336	304.336	44627.1	0.691036	32.4047
1201.63	285.052	46427.6	46059.8	729.266	306.541	306.492	306.492	46482.6	0.0570982	2.75103
1201.73	284.952	46496.8	45390.9	608.538	308.676	308.651	308.651	45690.8	-0.835781	-40.2985
1201.83	284.852	43619.6	42184.4	519.011	310.688	310.675	310.675	42392.8	-1.31349	-61.3412
1201.93	284.752	38041.2	37043.5	454.273	312.445	312.439	312.439	37185.4	-0.981172	-42.7915
1202.03	284.652	30551.6	30828.6	408.48	313.855	313.852	313.852	30923.2	0.475359	18.5791
1202.13	284.552	23394	24404.1	376.815	314.933	314.931	314.931	24466	1.56722	53.6001
1202.23	284.452	18565.2	18448.2	355.46	315.785	315.784	315.784	18487.8	-0.126967	-3.86836
1202.33	284.352	12144.6	13371.1	341.278	316.337	316.337	316.337	13396	2.53915	62.57
1202.43	284.252	8921	9330.93	332.113	316.739	316.739	316.739	9346.3	1.00687	21.265
1202.53	284.152	6303.54	6299.22	326.311	317.019	317.019	317.019	6308.52	0.014013	0.248776
1202.63	284.052	4246.86	4139.56	322.71	317.203	317.203	317.203	4145.06	-0.34929	-5.08985
1202.73	283.952	2565.9	2674.55	320.509	317.308	317.308	317.308	2677.75	0.493735	5.59241
1202.83	283.852	2680.74	1720.42	319.242	317.418	317.418	317.418	1722.24	-4.13952	-47.925
1202.93	283.752	2417.84	1123.89	318.536	317.517	317.517	317.517	1124.91	-5.87959	-64.6466
1203.03	283.652	2049	765.3	318.156	317.598	317.598	317.598	765.858	-6.33853	-64.1571
1203.13	283.552	1393.42	557.807	317.948	317.648	317.648	317.648	558.107	-5.00374	-41.7658
1203.23	283.452	1544.82	442.183	317.863	317.705	317.705	317.705	442.341	-6.27216	-55.1241
1203.33	283.352	1313.22	380.09	317.833	317.752	317.752	317.752	380.172	-5.75733	-46.6526
1203.43	283.252	1116.31	347.951	317.83	317.789	317.789	317.789	347.992	-5.142	-38.4157
1203.53	283.152	1008.99	331.919	317.842	317.821	317.821	317.821	331.939	-4.76608	-33.8523
1203.63	283.052	822.084	324.215	317.855	317.845	317.845	317.845	324.225	-3.88269	-24.8929
1203.73	282.952	880.482	320.661	317.876	317.871	317.871	317.871	320.666	-4.21862	-27.9908
1203.83	282.852	834.088	319.076	317.898	317.895	317.895	317.895	319.078	-3.98745	-25.7505
1203.93	282.752	731.494	318.397	317.916	317.915	317.915	317.915	318.398	-3.41531	-20.6548
1204.03	282.652	745.712	318.125	317.935	317.935	317.935	317.935	318.125	-3.50125	-21.3793
1204.13	282.552	682.9	318.024	317.952	317.952	317.952	317.952	318.024	-3.12213	-18.2438
1204.23	282.452	557.446	317.99	317.963	317.963	317.963	317.963	317.99	-2.26783	-11.9728
1204.33	282.352	566.334	317.984	317.975	317.975	317.975	317.975	317.984	-2.33353	-12.4175
1204.43	282.252	443.678	317.984	317.98	317.98	317.98	317.98	317.984	-1.33434	-6.28472
1204.53	282.152	636.076	317.996	317.995	317.995	317.995	317.995	317.996	-2.82011	-15.904
1204.63	282.052	494.212	318.004	318.004	318.004	318.004	318.004	318.004	-1.77237	-8.81041
1204.73	281.952	487.266	318.012	318.011	318.011	318.011	318.011	318.012	-1.71452	-8.46272
1204.83	281.852	448.984	318.018	318.018	318.018	318.018	318.018	318.018	-1.38207	-6.54832
1204.93	281.752	386.72	318.021	318.021	318.021	318.021	318.021	318.021	-0.781157	-3.43496
1205.03	281.652	496.656	318.029	318.029	318.029	318.029	318.029	318.029	-1.79227	-8.93134
1205.13	281.552	261.538	318.032	318.032	318.032	318.032	318.032	318.032	0.781121	2.82469
1205.23	281.452	322.994	318.032	318.032	318.032	318.032	318.032	318.032	-0.0617369	-0.2481
1205.33	281.352	369.564	369.564	369.564	369.564	369.564	369.564	369.564	0	0
1205.43	281.252	268.374	268.374	268.374	268.374	268.374	268.374	268.374	0	0
1205.53	281.152	206.078	206.078	206.078	206.078	206.078	206.078	206.078	0	0
1205.63	281.052	325.412	325.412	325.412	325.412	325.412	325.412	325.412	0	0
1205.73	280.952	281.11	281.11	281.11	281.11	281.11	281.11	281.11	0	0
1205.83	280.852	375.416	375.416	375.416	375.416	375.416	375.416	375.416	0	0
1205.93	280.752	353.354	353.354	353.354	353.354	353.354	353.354	353.354	0	0
1206.03	280.652	210.126	210.126	210.126	210.126	210.126	210.126	210.126	0	0
1206.13	280.552	120.898	120.898	120.898	120.898	120.898	120.898	120.898	0	0
1206.23	280.452	182.235	182.235	182.235	182.235	182.235	182.235	182.235	0	0
1206.33	280.352	234.292	234.292	234.292	234.292	234.292	234.292	234.292	0	0
1206.43	280.252	272.616	272.616	272.616	272.616	272.616	272.616	272.616	0	0
1206.53	280.152	281.964	281.964	281.964	281.964	281.964	281.964	281.964	0	0
1206.63	280.052	271.514	271.514	271.514	271.514	271.514	271.514	271.514	0	0
1206.73	279.952	218.588	218.588	218.588	218.588	218.588	218.588	218.588	0	0
1206.83	279.852	260.018	260.018	260.018	260.018	260.018	260.018	260.018	0	0
1206.93	279.752	183.288	183.288	183.288	183.288	183.288	183.288	183.288	0	0
1207.03	279.652	386.982	386.982	386.982	386.982	386.982	386.982	386.982	0	0
1207.13	279.552	190.615	190.615	190.615	190.615	190.615	190.615	190.615	0	0
1207.23	279.452	316.292	316.292	316.292	316.292	316.292	316.292	316.292	0	0
1207.33	279.352	347.24	347.24	347.24	347.24	347.24	347.24	347.24	0	0
1207.43	279.252	171.449	171.449	171.449	171.449	171.449	171.449	171.449	0	0
1207.53	279.152	223.03	223.03	223.03	223.03	223.03	223.03	223.03	0	0
1207.63	279.052	282.108	282.108	282.108	282.108	282.108	282.108	282.108	0	0
1207.73	278.952	211.534	211.534	211.534	211.534	211.534	211.534	211.534	0	0
1207.83	278.852	224.754	224.754	224.754	224.754	224.754	224.754	224.754	0	0
1207.93	278.752	163.602	163.602	163.602	163.602	163.602	163.602	163.602	0	0